File: data/SP6_xrd.csv
Baseline,Background,SiO2,Dolomite,Observed,Difference
4.0028,2081.38,2081.99,2081.42,2035,-47.03
4.1031,1982.22,1982.84,1982.26,1922,-60.88
4.2034,1920.34,1920.97,1920.38,1988,66.98
4.3037,1882.56,1883.2,1882.6,1974,90.76
4.4039,1859.57,1860.21,1859.61,1870,9.75
4.5042,1844.92,1845.57,1844.97,1884,38.38
4.6045,1834.26,1834.92,1834.31,1889,54.03
4.7048,1824.72,1825.39,1824.77,1770,-55.43
4.805,1814.49,1815.16,1814.54,1804,-11.21
4.9053,1802.54,1803.22,1802.59,1742,-61.27
5.0056,1788.36,1789.05,1788.41,1798,8.91
5.1059,1771.78,1772.48,1771.83,1789,16.47
5.2061,1752.89,1753.6,1752.94,1756,2.36
5.3064,1731.91,1732.62,1731.96,1689,-43.67
5.4067,1709.14,1709.86,1709.19,1634,-75.91
5.507,1684.93,1685.66,1684.98,1661,-24.71
5.6072,1659.62,1660.36,1659.67,1625,-35.41
5.7075,1633.56,1634.31,1633.61,1699,64.64
5.8078,1607.05,1607.81,1607.1,1611,3.14
5.9081,1580.38,1581.15,1580.43,1594,12.81
6.0083,1553.79,1554.56,1553.84,1616,61.39
6.1086,1527.49,1528.27,1527.54,1517,-11.33
6.2089,1501.66,1502.45,1501.71,1472,-30.51
6.3092,1476.43,1477.23,1476.48,1437,-40.29
6.4094,1451.92,1452.73,1451.97,1501,48.21
6.5097,1428.2,1429.02,1428.25,1429,-0.08
6.61,1405.34,1406.17,1405.39,1506,99.78
6.7102,1383.36,1384.2,1383.42,1450,65.74
6.8105,1362.29,1363.14,1362.35,1326,-37.2
6.9108,1342.13,1342.99,1342.19,1354,10.96
7.0111,1322.86,1323.73,1322.92,1341,17.21
7.1113,1304.47,1305.35,1304.53,1219,-86.41
7.2116,1286.93,1287.82,1286.99,1293,5.13
7.3119,1270.19,1271.09,1270.25,1300,28.85
7.4122,1254.23,1255.14,1254.29,1265,9.81
7.5124,1238.99,1239.91,1239.05,1241,1.03
7.6127,1224.43,1225.36,1224.49,1244,18.58
7.713,1210.5,1211.44,1210.56,1186,-25.5
7.8133,1197.16,1198.11,1197.22,1130,-68.17
7.9135,1184.35,1185.32,1184.41,1205,19.62
8.0138,1172.04,1173.02,1172.1,1213,39.92
8.1141,1160.18,1161.17,1160.24,1210,48.77
8.2144,1148.73,1149.73,1148.79,1164,14.21
8.3146,1137.64,1138.65,1137.7,1171,32.29
8.4149,1126.88,1127.9,1126.94,1104,-23.97
8.5152,1116.41,1117.44,1116.47,1059,-58.51
8.6155,1106.21,1107.26,1106.27,1116,8.68
8.7157,1096.23,1097.29,1096.3,1087,-10.36
8.816,1086.46,1087.53,1086.53,1065,-22.6
8.9163,1076.86,1077.94,1076.93,1041,-37.01
9.0166,1067.42,1068.52,1067.49,1078,9.41
9.1168,1058.12,1059.23,1058.19,1026,-33.29
9.2171,1048.93,1050.05,1049,1048,-2.12
9.3174,1039.84,1040.98,1039.91,974,-67.05
9.4177,1030.84,1031.99,1030.91,1020,-12.06
9.5179,1021.91,1023.08,1021.98,980,-43.15
9.6182,1013.06,1014.24,1013.13,941,-73.31
9.7185,1004.25,1005.45,1004.32,922,-83.52
9.8188,995.5,996.71,995.57,983,-13.79
9.919,986.8,988.03,986.87,990,1.9
10.0193,978.14,979.38,978.21,959,-20.45
10.1196,969.51,970.77,969.58,966,-4.85
10.2198,960.93,962.21,961,953,-9.28
10.3201,952.38,953.67,952.46,947,-6.74
10.4204,943.86,945.17,943.94,897,-48.25
10.5207,935.39,936.72,935.47,901,-35.79
10.6209,926.95,928.3,927.03,974,45.62
10.7212,918.56,919.92,918.64,933,13
10.8215,910.21,911.59,910.29,870,-41.67
10.9218,901.91,903.31,901.99,891,-12.39
11.022,893.66,895.08,893.74,920,24.83
11.1223,885.47,886.91,885.55,908,21.01
11.2226,877.33,878.79,877.41,916,37.12
11.3229,869.26,870.74,869.34,863,-7.83
11.4231,861.26,862.77,861.34,899,36.15
11.5234,853.33,854.86,853.41,865,10.06
11.6237,845.48,847.03,845.57,879,31.89
11.724,837.7,839.27,837.79,842,2.63
11.8242,830.02,831.62,830.11,837,5.29
11.9245,822.42,824.04,822.51,832,7.86
12.0248,814.92,816.57,815.01,753,-63.66
12.1251,807.52,809.19,807.61,845,35.71
12.2253,800.22,801.92,800.31,827,24.99
12.3256,793.03,794.76,793.12,795,0.15
12.4259,785.95,787.71,786.04,794,6.2
12.5262,778.98,780.76,779.07,752,-28.86
12.6264,772.13,773.94,772.22,787,12.96
12.7267,765.4,767.24,765.5,812,44.66
12.827,758.8,760.68,758.9,784,23.23
12.9273,752.32,754.23,752.42,808,53.67
13.0275,745.97,747.91,746.07,761,12.99
13.1278,739.75,741.73,739.85,665,-76.83
13.2281,733.67,735.68,733.77,743,7.22
13.3284,727.72,729.77,727.82,724,-5.87
13.4286,721.91,723.99,722.01,758,33.91
13.5289,716.23,718.35,716.34,725,6.54
13.6292,710.69,712.85,710.8,730,17.04
13.7294,705.3,707.5,705.41,697,-10.61
13.8297,700.04,702.28,700.15,731,28.6
13.93,694.93,697.22,695.04,701,3.67
14.0303,689.96,692.29,690.07,764,71.59
14.1305,685.13,687.51,685.24,720,32.38
14.2308,680.45,682.88,680.56,696,13.01
14.3311,675.9,678.38,676.02,677,-1.49
14.4314,671.5,674.03,671.62,686,11.86
14.5316,667.23,669.81,667.35,696,26.07
14.6319,663.11,665.75,663.23,731,65.13
14.7322,659.13,661.82,659.25,652,-9.94
14.8325,655.28,658.03,655.41,701,42.84
14.9327,651.57,654.39,651.7,683,28.48
15.033,648,650.88,648.13,656,4.99
15.1333,644.56,647.51,644.69,681,33.36
15.2336,641.25,644.27,641.38,643,-1.4
15.3338,638.08,641.17,638.22,631,-10.3
15.4341,635.03,638.2,635.17,666,27.67
15.5344,632.11,635.36,632.25,632,-3.5
15.6347,629.31,632.64,629.46,641,8.21
15.7349,626.64,630.05,626.79,592,-38.21
15.8352,624.09,627.6,624.25,640,12.24
15.9355,621.66,625.26,621.83,605,-20.43
16.0358,619.34,623.04,619.52,658,34.78
16.136,617.14,620.95,617.35,611,-10.15
16.2363,615.05,618.97,615.3,621,1.79
16.3366,613.06,617.09,613.42,593,-24.46
16.4369,611.19,615.35,611.87,604,-12.02
16.5371,609.42,613.71,610.7,635,20.01
16.6374,607.74,612.16,608.6,599,-14.03
16.7377,606.17,610.74,606.59,581,-30.16
16.838,604.69,609.42,604.97,577,-32.7
16.9382,603.31,608.2,603.54,582,-26.43
17.0385,602.02,607.09,602.23,644,36.71
17.1388,600.81,606.06,601.01,609,2.74
17.239,599.69,605.14,599.88,607,1.66
17.3393,598.66,604.33,598.85,597,-7.52
17.4396,597.7,603.6,597.89,607,3.21
17.5399,596.82,602.97,597.01,530,-73.16
17.6401,596.01,602.43,596.2,624,21.37
17.7404,595.28,602,595.47,614,11.81
17.8407,594.61,601.65,594.81,615,13.16
17.941,594.01,601.4,594.21,601,-0.6
18.0412,593.47,601.24,593.67,590,-11.45
18.1415,593,601.2,593.21,594,-7.4
18.2418,592.58,601.25,592.79,576,-25.46
18.3421,592.22,601.41,592.43,595,-6.62
18.4423,591.91,601.68,592.13,534,-67.9
18.5426,591.65,602.08,591.87,568,-34.3
18.6429,591.44,602.7,591.67,598,-4.93
18.7432,591.28,607.75,591.51,598,-9.98
18.8434,591.16,627.87,591.4,682,53.89
18.9437,591.08,610.74,591.32,624,13.01
19.044,591.04,608.17,591.29,634,25.58
19.1443,591.04,608.42,591.3,629,20.33
19.2445,591.07,609.57,591.33,616,6.17
19.3448,591.13,611.3,591.4,697,85.43
19.4451,591.22,613.57,591.5,612,-1.84
19.5454,591.34,616.46,591.63,592,-24.75
19.6456,591.48,620.12,591.78,659,38.58
19.7459,591.65,624.82,591.97,694,68.86
19.8462,591.84,630.93,592.24,749,117.67
19.9465,592.04,639.09,592.44,741,101.51
20.0467,592.27,650.35,592.65,697,46.27
20.147,592.51,666.45,592.89,788,121.18
20.2473,592.77,690.99,593.16,848,156.62
20.3476,593.03,731.06,593.44,826,94.54
20.4478,593.31,803.51,593.74,954,150.06
20.5481,593.6,956.49,594.05,1076,119.06
20.6484,593.89,1375.42,594.38,1502,126.1
20.7486,594.19,3130.54,594.72,3576,444.94
20.8489,594.49,10170.45,595.06,10759,587.98
20.9492,594.79,4879,595.43,5142,262.36
21.0495,595.1,1637.27,595.82,1669,31.02
21.1497,595.4,1036.15,596.22,1153,116.02
21.25,595.7,839.91,596.67,901,60.12
21.3503,596,752.75,597.19,829,75.06
21.4506,596.3,706.77,597.82,838,129.72
21.5508,596.59,679.81,598.66,713,31.12
21.6511,596.87,662.66,600.02,670,4.2
21.7514,597.14,651.21,602.53,693,36.4
21.8517,597.41,643.28,608.74,653,-1.62
21.9519,597.66,637.64,626.25,707,40.77
22.0522,597.91,633.55,635.26,781,110.1
22.1525,598.14,630.55,614.73,719,71.86
22.2528,598.36,628.36,605.39,654,18.61
22.353,598.56,626.76,602.41,639,8.39
22.4533,598.75,625.61,601.28,579,-49.14
22.5536,598.93,624.84,600.81,633,6.28
22.6539,599.08,624.36,600.6,636,10.11
22.7541,599.23,624.14,600.55,651,25.55
22.8544,599.35,624.12,600.56,580,-45.33
22.9547,599.45,624.28,600.61,586,-39.45
23.055,599.54,624.63,600.7,593,-32.79
23.1552,599.61,625.13,600.81,590,-36.33
23.2555,599.65,625.78,600.95,567,-60.09
23.3558,599.68,626.6,601.15,612,-16.07
23.4561,599.69,627.58,601.45,585,-44.33
23.5563,599.67,628.7,601.92,558,-72.95
23.6566,599.63,630,602.79,641,7.84
23.7569,599.57,631.48,604.66,607,-29.57
23.8572,599.49,635.09,609.58,609,-36.18
23.9574,599.38,667.39,624.19,727,34.8
24.0577,599.25,759.11,639.37,836,36.77
24.158,599.1,668.63,620.12,680,-9.65
24.2582,598.92,653.21,607.52,623,-38.82
24.3585,598.72,650.47,603.27,606,-49.02
24.4588,598.5,651.3,601.43,618,-36.22
24.5591,598.25,653.83,600.39,549,-106.97
24.6593,597.98,657.6,599.69,619,-40.31
24.7596,597.68,662.49,599.13,632,-31.94
24.8599,597.36,668.57,598.64,586,-83.85
24.9602,597.01,676.01,598.19,626,-51.19
25.0604,596.64,685.11,597.75,575,-111.21
25.1607,596.24,696.28,597.3,634,-63.34
25.261,595.82,710.12,596.85,644,-67.15
25.3613,595.38,727.48,596.39,728,-0.49
25.4615,594.91,749.47,595.91,746,-4.47
25.5618,594.41,778.08,595.41,800,20.91
25.6621,593.89,816.03,594.9,957,139.95
25.7624,593.35,867.79,594.37,1253,384.19
25.8626,592.78,940.82,593.82,1159,217.14
25.9629,592.19,1048.5,593.25,1232,182.44
26.0632,591.58,1216.63,592.67,1375,157.29
26.1635,590.94,1500.49,592.05,1663,161.39
26.2637,590.28,2034.04,591.43,1902,-133.18
26.364,589.59,3241.87,590.77,2793,-450.05
26.4643,588.88,6893.5,590.1,6018,-876.73
26.5646,588.15,23160.02,589.42,23991,829.72
26.6648,587.4,52447.51,588.72,55637,3188.18
26.7651,586.62,18481.67,587.99,17996,-487.05
26.8654,585.82,5574.03,587.25,4674,-901.46
26.9657,585,2838.14,586.5,2361,-478.63
27.0659,584.16,1863.7,585.73,1653,-212.26
27.1662,583.29,1408.74,584.93,1288,-122.39
27.2665,582.41,1158.63,584.14,1220,59.65
27.3668,581.5,1006.66,583.32,1075,66.52
27.467,580.58,907.28,582.5,947,37.81
27.5673,579.63,838.6,581.66,926,85.37
27.6676,578.67,789.06,580.96,903,111.66
27.7678,577.68,752.04,581.21,824,68.42
27.8681,576.68,723.59,583.28,782,51.82
27.9684,575.66,701.17,580.54,810,103.96
28.0687,574.62,683.16,578.4,798,111.06
28.1689,573.56,668.36,577.03,759,87.17
28.2692,572.48,656.02,575.93,697,37.53
28.3695,571.39,645.6,574.94,682,32.85
28.4698,570.28,636.66,574.01,687,46.61
28.57,569.15,628.91,573.12,665,32.12
28.6703,568.01,622.12,572.27,716,89.62
28.7706,566.85,616.1,571.47,728,107.28
28.8709,565.68,610.72,570.72,658,42.25
28.9711,564.49,605.88,570.02,727,115.6
29.0714,563.29,601.47,569.39,792,184.43
29.1717,562.07,597.43,568.86,728,123.78
29.272,560.84,593.71,568.45,645,43.68
29.3722,559.59,590.26,568.18,710,111.15
29.4725,558.34,587.05,568.13,737,140.17
29.5728,557.07,584.03,568.33,662,66.71
29.6731,555.79,581.18,568.9,659,64.71
29.7733,554.49,578.48,569.95,647,53.06
29.8736,553.19,575.91,571.71,678,83.58
29.9739,551.87,573.44,574.45,637,40.98
30.0742,550.55,571.05,578.76,633,33.74
30.1744,549.21,568.71,585.46,624,19.03
30.2747,547.87,566.41,596.05,673,58.42
30.375,546.51,564.13,613.75,625,-6.38
30.4753,545.15,561.93,645.5,635,-27.29
30.5755,543.78,559.8,708.86,709,-15.88
30.6758,542.4,557.71,856.22,918,46.47
30.7761,541.01,555.67,1259.49,1461,186.85
30.8764,539.62,553.68,2196.89,2029,-181.94
30.9766,538.22,551.73,2046.38,2220,160.12
31.0769,536.81,549.81,1187.41,1236,35.59
31.1772,535.39,547.91,817.05,694,-135.58
31.2774,533.98,546.07,684.96,660,-37.05
31.3777,532.55,544.24,625.9,639,1.42
31.478,531.12,542.43,594.41,584,-21.72
31.5783,529.69,540.66,575.42,566,-20.38
31.6785,528.25,538.9,562.89,608,34.46
31.7788,526.8,537.16,554.03,585,20.61
31.8791,525.36,535.45,547.27,553,-4.36
31.9794,523.91,533.75,541.97,566,14.19
32.0796,522.46,532.08,537.63,503,-44.25
32.1799,521,530.41,533.97,522,-21.38
32.2802,519.54,528.76,530.79,447,-93.02
32.3805,518.09,527.15,527.99,511,-26.04
32.4807,516.63,525.54,525.46,513,-21.36
32.581,515.17,523.95,523.16,499,-32.93
32.6813,513.7,522.45,521.05,498,-31.81
32.7816,512.24,521.55,519.15,524,-4.46
32.8818,510.78,523.71,517.47,514,-16.4
32.9821,509.32,521.93,516.08,524,-4.69
33.0824,507.86,517.79,515.22,490,-35.14
33.1827,506.39,515.48,515.51,541,16.4
33.2829,504.93,513.68,518.97,516,-11.73
33.3832,503.48,512.06,531.86,532,-8.44
33.4835,502.02,510.53,543.7,534,-18.2
33.5838,500.56,509.05,527.1,516,-19.59
33.684,499.11,507.62,511.75,484,-36.27
33.7843,497.66,506.24,505.2,488,-25.78
33.8846,496.22,504.9,501.7,451,-59.37
33.9849,494.77,503.58,499.23,479,-29.05
34.0851,493.33,502.32,497.21,467,-39.21
34.1854,491.89,501.1,495.43,500,-4.65
34.2857,490.46,499.94,493.8,473,-30.28
34.386,489.03,498.84,492.28,502,-0.09
34.4862,487.6,497.8,490.86,427,-74.07
34.5865,486.18,496.85,489.58,487,-13.25
34.6868,484.77,496,488.49,498,-1.72
34.787,483.36,495.26,487.71,495,-4.6
34.8873,481.95,494.66,487.55,504,3.73
34.9876,480.55,494.25,488.94,489,-13.63
35.0879,479.16,494.06,494.58,558,48.53
35.1881,477.77,494.15,512.58,530,1.04
35.2884,476.38,494.67,523.55,572,30.15
35.3887,475.01,496.05,503.3,516,-8.34
35.489,473.64,501.1,486.22,482,-31.67
35.5892,472.27,504.28,479.33,492,-19.33
35.6895,470.91,505.3,475.77,521,10.83
35.7898,469.56,511.14,473.38,484,-30.96
35.8901,468.22,521.16,471.48,495,-29.42
35.9903,466.88,537.95,469.85,536,-4.92
36.0906,465.55,567.79,468.37,509,-61.62
36.1909,464.23,626.86,467.02,577,-52.66
36.2912,462.92,760.95,465.78,679,-84.81
36.3914,461.61,1114.35,464.63,958,-159.37
36.4917,460.31,2278.73,463.62,2264,-18.04
36.592,459.02,2721.49,462.79,2960,234.73
36.6923,457.74,1613.82,462.25,1718,99.67
36.7925,456.47,882.82,462.23,898,9.41
36.8928,455.2,664.03,463.34,680,7.83
36.9931,453.95,578.5,466.67,559,-32.21
37.0934,452.7,536.51,473.7,550,-7.51
37.1936,451.46,512.65,494.32,534,-21.52
37.2939,450.23,497.65,549.71,618,20.87
37.3942,449.01,487.51,558.41,590,-6.91
37.4945,447.79,480.27,507.16,556,16.36
37.5947,446.59,474.9,472.11,523,22.59
37.695,445.39,470.77,458.94,454,-30.33
37.7953,444.21,467.57,452.78,468,-8.14
37.8956,443.03,465.08,449.11,426,-45.16
37.9958,441.87,463.28,446.54,498,30.05
38.0961,440.71,462.73,444.52,466,-0.53
38.1964,439.56,466.23,442.8,478,8.52
38.2966,438.42,461.92,441.29,445,-19.78
38.3969,437.29,461.06,439.9,481,17.33
38.4972,436.17,461.69,438.6,443,-21.12
38.5975,435.06,463.48,437.37,457,-8.79
38.6977,433.96,466.78,436.2,421,-48.03
38.798,432.87,472.38,435.07,481,6.42
38.8983,431.79,481.9,433.99,460,-24.1
38.9986,430.72,498.82,432.95,508,6.96
39.0988,429.66,531.99,431.94,539,4.73
39.1991,428.61,608.85,430.99,620,8.78
39.2994,427.56,818.72,430.09,807,-14.25
39.3997,426.53,1685.24,429.25,1865,177.04
39.4999,425.51,2869.03,428.38,3378,506.11
39.6002,424.5,1851.63,427.59,2134,279.29
39.7005,423.49,822.11,426.88,859,33.49
39.8008,422.5,619.25,426.28,627,3.97
39.901,421.52,570.79,425.79,556,-19.06
40.0013,420.54,584.09,425.46,581,-8.01
40.1016,419.58,675.8,425.37,687,5.42
40.2019,418.62,999.98,425.62,1021,14.03
40.3021,417.68,1529.44,426.51,1512,-26.28
40.4024,416.74,1201.68,428.18,1231,17.88
40.5027,415.82,727.97,430.6,695,-47.75
40.603,414.9,557.51,435.49,554,-24.1
40.7032,413.99,498,445.24,520,-9.25
40.8035,413.1,470.71,466.18,551,27.21
40.9038,412.21,455.82,515.73,572,12.67
41.0041,411.33,446.88,651.14,717,30.3
41.1043,410.46,442.21,818.08,799,-50.83
41.2046,409.6,439.94,711.21,769,27.45
41.3049,408.75,434.91,544.11,576,5.72
41.4052,407.91,432.89,470.43,508,12.59
41.5054,407.08,432.22,442.14,462,-5.28
41.6057,406.26,432.76,428.71,484,28.79
41.706,405.44,434.78,421.14,435,-15.49
41.8062,404.64,439.04,416.33,451,0.27
41.9065,403.84,447.07,412.96,447,-9.19
42.0068,403.06,462.5,410.45,485,15.11
42.1071,402.28,495.23,408.45,513,11.61
42.2073,401.51,576.53,406.8,632,50.19
42.3076,400.75,799.67,405.39,887,82.69
42.4079,400,1931.96,404.16,1969,32.88
42.5082,399.25,1916.82,403.06,2020,99.37
42.6084,398.52,1185.81,402.08,1227,37.64
42.7087,397.79,628.54,401.19,666,34.07
42.809,397.07,505.2,400.38,501,-7.51
42.9093,396.36,460.83,399.67,455,-9.14
43.0095,395.66,439.58,399.06,442,-0.97
43.1098,394.96,427.54,398.57,426,-5.15
43.2101,394.28,419.94,398.28,414,-9.94
43.3104,393.6,414.74,398.32,456,36.55
43.4106,392.93,410.96,399,402,-15.02
43.5109,392.26,408.07,401.16,391,-25.98
43.6112,391.61,405.81,407.13,413,-8.33
43.7115,390.96,403.98,423.69,476,39.29
43.8117,390.31,402.46,429.48,480,38.36
43.912,389.68,401.2,416.98,418,-10.5
44.0123,389.05,400.14,403.69,419,4.23
44.1126,388.43,399.25,398.81,409,-0.63
44.2128,387.82,398.53,397.52,416,7.77
44.3131,387.21,397.96,397.95,376,-32.71
44.4134,386.61,397.56,400.21,427,15.83
44.5137,386.02,397.35,405.52,405,-11.85
44.6139,385.44,397.37,417.39,421,-8.32
44.7142,384.86,397.76,445.29,422,-36.19
44.8145,384.28,398.87,521.67,548,11.74
44.9147,383.71,402.07,603.27,650,28.37
45.015,383.15,411.74,550.11,575,-3.71
45.1153,382.6,411.22,463.82,516,23.56
45.2156,382.05,412.79,420.7,421,-30.44
45.3158,381.5,421.33,403.21,468,24.95
45.4161,380.97,440.22,394.77,449,-5.02
45.5164,380.43,484.47,390.08,597,102.88
45.6167,379.91,593.22,387.17,680,79.52
45.7169,379.39,1040.67,385.33,1118,71.4
45.8172,378.87,1731.23,383.98,1587,-149.33
45.9175,378.36,1311.37,382.45,1097,-218.46
46.0178,377.85,651.37,381.25,690,35.23
46.118,377.35,485.77,380.28,468,-20.69
46.2183,376.85,436.9,379.43,432,-7.48
46.3186,376.36,415.9,378.67,458,39.79
46.4189,375.88,404.83,377.98,406,-0.92
46.5191,375.39,398.18,377.32,416,15.89
46.6194,374.91,393.83,376.71,369,-26.64
46.7197,374.44,390.81,376.13,381,-11.5
46.82,373.97,388.61,375.57,385,-5.21
46.9202,373.5,386.94,375.04,346,-42.49
47.0205,373.04,385.65,374.52,402,14.86
47.1208,372.59,384.65,374.03,382,-4.08
47.2211,372.13,383.85,373.54,371,-14.25
47.3213,371.68,383.22,373.07,409,24.4
47.4216,371.23,382.73,372.61,378,-6.11
47.5219,370.79,382.38,372.17,409,25.24
47.6222,370.35,382.15,371.74,360,-23.54
47.7224,369.91,382.04,371.32,365,-18.45
47.8227,369.48,382.05,370.93,352,-31.49
47.923,369.05,382.18,370.54,350,-33.67
48.0233,368.62,382.45,370.18,418,33.99
48.1235,368.19,382.88,369.83,373,-11.52
48.2238,367.77,383.49,369.52,406,20.76
48.3241,367.35,384.31,369.24,411,24.8
48.4244,366.93,385.39,369.02,396,8.53
48.5246,366.52,386.79,368.87,371,-18.13
48.6249,366.1,388.57,368.82,438,46.71
48.7252,365.69,390.86,368.99,450,55.84
48.8254,365.28,393.82,369.54,447,48.91
48.9257,364.88,397.69,370.95,406,2.24
49.026,364.47,402.87,374.28,460,47.32
49.1263,364.07,410.49,383.51,476,46.07
49.2265,363.67,422.96,396.13,469,13.58
49.3268,363.27,432.5,390.23,436,-23.45
49.4271,362.87,450.27,379.49,459,-7.89
49.5274,362.47,478.66,372.45,485,-3.64
49.6276,362.08,526.04,370.13,503,-31.09
49.7279,361.68,607.74,369.64,564,-51.7
49.8282,361.29,772.53,370.26,654,-127.49
49.9285,360.9,1128.66,372.05,1034,-105.81
50.0287,360.51,2119.8,375.79,2108,-27.08
50.129,360.12,4519.07,383.46,4629,86.6
50.2293,359.73,3731.13,399.95,3688,-83.34
50.3296,359.34,2380.43,443.14,2402,-62.22
50.4298,358.95,1159.7,499.97,1186,-114.72
50.5301,358.56,778.53,477.78,876,-21.75
50.6304,358.18,678.66,439.09,770,10.44
50.7307,357.79,568.54,421.85,681,48.4
50.8309,357.4,495.41,444.12,675,92.86
50.9312,357.02,449.48,530.57,606,-17.03
51.0315,356.63,426.5,577.19,640,-7.06
51.1318,356.24,411.78,527.56,580,-3.1
51.232,355.86,401.48,445.15,544,53.23
51.3323,355.47,393.83,400.22,428,-10.58
51.4326,355.09,387.83,380.33,461,47.93
51.5329,354.7,383.13,370.94,384,-15.37
51.6331,354.31,379.34,365.79,406,15.18
51.7334,353.93,376.23,362.59,420,35.11
51.8337,353.54,373.63,360.41,369,-11.5
51.9339,353.15,371.42,358.87,345,-32.14
52.0342,352.77,369.54,357.83,345,-29.6
52.1345,352.38,367.91,357.35,380,7.12
52.2348,351.99,366.49,357.98,358,-14.48
52.335,351.6,365.24,357.57,386,14.79
52.4353,351.21,364.14,356.03,387,18.03
52.5356,350.82,363.18,354.15,369,2.49
52.6359,350.42,362.32,352.97,323,-41.87
52.7361,350.03,361.57,352.2,382,18.25
52.8364,349.64,360.93,351.5,342,-20.79
52.9367,349.24,360.38,350.88,341,-21.01
53.037,348.85,359.93,350.32,334,-27.4
53.1372,348.45,359.57,349.8,384,23.08
53.2375,348.05,359.35,349.29,366,5.41
53.3378,347.65,359.31,348.82,342,-18.48
53.4381,347.25,359.58,348.4,360,-0.73
53.5383,346.85,360.68,348.02,361,-0.85
53.6386,346.45,364.85,347.48,378,12.12
53.7389,346.04,366.3,346.97,340,-27.24
53.8392,345.64,363.95,346.51,367,2.18
53.9394,345.23,364.49,346.05,364,-1.31
54.0397,344.82,366.56,345.6,350,-17.34
54.14,344.41,370.17,345.15,347,-23.92
54.2403,344,376.06,344.71,357,-19.77
54.3405,343.59,385.98,344.27,384,-2.66
54.4408,343.17,404.17,343.83,414,9.17
54.5411,342.75,441.5,343.39,470,27.86
54.6414,342.34,518.52,342.96,531,11.87
54.7416,341.92,724.87,342.52,820,94.53
54.8419,341.5,1743.48,342.08,1328,-416.05
54.9422,341.08,1427,341.65,1298,-129.56
55.0425,340.65,1283.1,341.21,1101,-182.65
55.1427,340.23,683.67,340.78,724,39.79
55.243,339.8,668.83,340.34,650,-19.37
55.3433,339.37,962.78,339.91,868,-95.32
55.4436,338.94,724.94,339.47,706,-19.47
55.5438,338.51,559.82,339.03,567,6.66
55.6441,338.07,422.89,338.59,443,19.6
55.7444,337.64,386.35,338.15,405,18.15
55.8446,337.2,370.99,337.71,381,9.51
55.9449,336.76,362.64,337.27,384,20.85
56.0452,336.32,357.41,336.83,377,19.08
56.1455,335.88,353.85,336.39,375,20.64
56.2457,335.43,351.27,335.95,301,-50.79
56.346,334.98,349.35,335.51,362,12.12
56.4463,334.54,347.92,335.09,370,21.53
56.5466,334.09,346.89,334.69,337,-10.49
56.6468,333.64,346.26,334.38,341,-5.99
56.7471,333.18,346.13,333.91,326,-20.86
56.8474,332.73,346.88,333.39,347,-0.53
56.9477,332.27,349.21,332.92,368,18.15
57.0479,331.81,355.22,332.47,366,10.12
57.1482,331.35,375.77,332.03,344,-32.45
57.2485,330.89,397.29,331.6,407,8.99
57.3488,330.43,382.05,331.19,333,-49.81
57.449,329.97,364.18,330.8,371,5.99
57.5493,329.5,349.45,330.45,356,5.59
57.6496,329.03,344.35,330.04,337,-8.36
57.7499,328.57,342.22,329.63,339,-4.28
57.8501,328.1,341.19,329.27,341,-1.36
57.9504,327.63,340.71,328.97,365,22.95
58.0507,327.15,340.58,328.73,356,13.84
58.151,326.68,340.73,328.59,345,2.36
58.2512,326.2,341.13,328.52,314,-29.46
58.3515,325.73,341.83,328.75,337,-7.84
58.4518,325.25,342.83,329.48,337,-10.06
58.5521,324.77,344.24,331.21,379,28.32
58.6523,324.29,346.19,335.2,350,-7.1
58.7526,323.81,349.09,346.27,360,-11.55
58.8529,323.32,352.34,360.63,365,-24.65
58.9532,322.84,356.85,353.43,354,-33.44
59.0534,322.36,363.33,344.84,388,2.2
59.1537,321.87,372.6,334.27,406,20.99
59.254,321.38,386.35,330.32,412,16.7
59.3542,320.9,407.8,329.81,430,13.29
59.4545,320.41,443.52,331.82,517,62.08
59.5548,319.92,508.27,337.63,480,-45.98
59.6551,319.43,630.81,354.31,662,-3.69
59.7553,318.94,880.75,383.84,965,19.34
59.8556,318.45,1636.49,373.8,1687,-4.84
59.9559,317.96,2938.34,360.45,2699,-281.84
60.0562,317.47,2236.47,338.7,2170,-87.7
60.1564,316.98,1745.5,328.09,1679,-77.6
60.2567,316.49,910.25,323.25,933,15.99
60.357,315.99,606.27,320.62,596,-14.91
60.4573,315.5,489.93,318.95,517,23.62
60.5575,315.01,431.27,317.74,452,18.01
60.6578,314.52,397.24,316.79,459,59.49
60.7581,314.02,378.39,315.97,363,-17.35
60.8584,313.53,369.06,315.27,381,10.2
60.9586,313.04,358.19,314.63,384,24.22
61.0589,312.54,347.88,314.04,380,30.61
61.1592,312.05,340.83,313.51,354,11.7
61.2595,311.56,336.11,313.03,352,14.42
61.3597,311.07,332.49,312.61,351,16.98
61.46,310.58,329.58,312.28,359,27.72
61.5603,310.09,327.17,312.12,316,-13.2
61.6606,309.6,325.14,312.3,313,-14.84
61.7608,309.11,323.41,313.52,328,0.18
61.8611,308.63,321.92,315.84,319,-10.13
61.9614,308.14,320.61,314.45,315,-11.92
62.0617,307.65,319.47,312.98,315,-9.8
62.1619,307.17,318.47,310.67,325,3.03
62.2622,306.68,317.59,309.37,297,-23.28
62.3625,306.2,316.83,308.71,331,11.66
62.4627,305.72,316.19,308.34,325,6.19
62.563,305.24,315.65,308.18,304,-14.6
62.6633,304.77,315.25,308.29,320,1.23
62.7636,304.29,314.98,308.69,346,26.62
62.8639,303.82,314.88,309.67,335,14.27
62.9641,303.35,314.99,311.75,318,-5.38
63.0644,302.88,315.37,315.85,329,0.66
63.1647,302.41,316.15,324.56,319,-19.3
63.2649,301.94,317.52,347.82,339,-24.4
63.3652,301.48,319.85,380.37,379,-19.74
63.4655,301.02,323.84,365.02,422,34.17
63.5658,300.56,330.94,351.49,418,36.12
63.666,300.1,344.14,326.66,368,-2.7
63.7663,299.65,368.32,314.42,383,-0.09
63.8666,299.2,423.46,309.56,457,23.18
63.9669,298.75,596.55,307.79,619,13.4
64.0671,298.31,724.63,308.04,703,-31.35
64.1674,297.87,609.62,310.68,631,8.57
64.2677,297.43,521.72,319.46,485,-58.74
64.368,296.99,395.83,336.67,375,-60.51
64.4682,296.56,350.02,332.03,366,-19.49
64.5685,296.13,331.37,326.32,341,-20.56
64.6688,295.71,322.12,315.13,349,7.46
64.7691,295.29,316.91,309.55,325,-6.17
64.8693,294.87,313.78,311.41,372,41.68
64.9696,294.46,311.91,322.09,336,-3.53
65.0699,294.05,310.92,323.13,334,-6
65.1702,293.64,310.75,317.03,366,31.85
65.2704,293.24,311.66,309.07,344,16.51
65.3707,292.85,314.64,301.55,322,-1.34
65.471,292.46,320.53,298.28,366,39.65
65.5713,292.07,329.17,296.85,385,51.05
65.6715,291.69,366.37,296.38,427,55.94
65.7718,291.31,487.34,296.85,459,-33.89
65.8721,290.94,402.41,299.49,401,-9.96
65.9723,290.57,410.69,304.83,458,33.05
66.0726,290.21,342.72,302.79,395,39.69
66.1729,289.86,323.11,300.63,339,5.12
66.2732,289.51,318.12,296.51,348,22.88
66.3734,289.16,317.2,293.76,356,34.2
66.4737,288.82,318.16,292.57,321,-0.92
66.574,288.49,320.46,292.1,377,52.93
66.6743,288.17,324.05,292.1,337,9.03
66.7745,287.85,329.16,292.57,371,37.12
66.8748,287.53,336.33,293.77,382,39.43
66.9751,287.22,346.53,296.21,388,32.48
67.0754,286.92,361.49,300.94,358,-17.51
67.1756,286.63,384.58,312.28,425,14.77
67.2759,286.34,422.48,340.11,469,-7.26
67.3762,286.06,487.06,349.86,523,-27.87
67.4765,285.79,598.21,335.87,637,-11.28
67.5767,285.52,856.04,322.09,909,16.39
67.677,285.26,1607.48,303.39,1473,-152.61
67.7773,285.01,1986.39,294.92,1734,-262.3
67.8776,284.77,1680.71,291.1,1594,-93.04
67.9778,284.54,1649.42,289.09,1638,-15.96
68.0781,284.31,2140,287.73,2068,-75.42
68.1784,284.09,2887.98,286.79,2542,-348.68
68.2787,283.87,2983.64,286.04,2242,-743.81
68.3789,283.67,2330.93,285.48,1994,-338.73
68.4792,283.48,1588.27,285.04,1315,-274.83
68.5795,283.3,911.52,284.68,930,17.11
68.6798,283.12,561.09,284.37,646,83.66
68.78,282.95,447.25,284.11,499,50.6
68.8803,282.79,394.64,283.89,412,16.27
68.9806,282.64,365.01,283.7,358,-8.06
69.0809,282.5,346.28,283.55,367,19.67
69.1811,282.37,333.54,283.44,369,34.39
69.2814,282.24,324.39,283.36,335,9.49
69.3817,282.13,317.57,283.35,345,26.2
69.4819,282.03,312.33,283.43,297,-16.73
69.5822,281.94,308.21,283.64,313,3.1
69.6825,281.86,304.9,284.09,342,34.87
69.7828,281.78,302.19,285.17,308,2.42
69.8831,281.73,299.97,286.79,313,7.97
69.9833,281.67,298.1,287.49,305,1.08
70.0836,281.64,296.54,289.73,324,19.37
70.1839,281.6,295.2,295.46,323,13.93
70.2841,281.58,294.07,304.02,330,13.48
70.3844,281.58,293.11,299.65,335,23.82
70.4847,281.58,292.27,297.1,337,29.2
70.585,281.6,291.57,290.95,340,39.08
70.6852,281.63,290.97,286.52,330,34.14
70.7855,281.67,290.45,284.66,295,1.56
70.8858,281.72,290.02,283.81,368,75.89
70.9861,281.78,289.66,283.38,306,14.74
71.0863,281.85,289.36,283.17,293,2.33
71.1866,281.94,289.13,283.08,278,-12.27
71.2869,282.04,288.96,283.08,287,-3
71.3872,282.15,288.84,283.12,293,3.18
71.4874,282.26,288.77,283.21,303,13.28
71.5877,282.42,288.79,283.37,317,27.25
71.688,282.57,288.85,283.56,282,-7.84
71.7883,282.73,288.96,283.8,300,9.98
71.8885,282.91,289.15,284.1,311,20.66
71.9888,283.1,289.4,284.48,297,6.22
72.0891,283.31,289.75,284.98,291,-0.42
72.1894,283.52,290.2,285.66,252,-40.33
72.2896,283.76,290.79,286.68,297,3.3
72.3899,284,291.54,288.21,293,-2.74
72.4902,284.26,292.53,290.73,305,6
72.5905,284.53,293.86,296.17,296,-9.5
72.6907,284.82,295.73,308.7,301,-18.61
72.791,285.14,298.49,314.81,306,-22.16
72.8913,285.43,302.79,308.09,322,-3.46
72.9916,285.8,310.23,305.01,348,18.57
73.0918,286.15,322.88,296.56,323,-10.29
73.1921,286.5,341.76,292.1,349,1.65
73.2924,286.87,387.32,290.38,423,32.17
73.3926,287.27,575.72,289.76,638,59.8
73.4929,287.68,864.52,289.61,742,-124.46
73.5932,288.11,572.28,289.74,598,24.1
73.6935,288.55,636.46,290.02,569,-68.92
73.7937,289,422.3,290.42,416,-7.72
73.894,289.48,344.69,290.97,316,-30.19
73.9943,289.97,320.79,291.67,322,-0.49
74.0946,290.47,310.67,292.59,320,7.22
74.1948,290.98,305.54,293.84,290,-18.4
74.2951,291.54,302.72,295.83,286,-21.01
74.3954,292.1,301.08,299.91,308,-0.89
74.4957,292.66,300.12,307.75,300,-15.21
74.5959,293.26,299.61,308.52,293,-21.87
74.6962,293.85,299.37,305.98,334,22.49
74.7965,294.48,299.36,304.27,293,-16.15
74.8968,295.14,299.51,300.33,319,14.3
74.997,295.8,299.76,298.68,282,-20.64
75.0472,296.13,299.91,298.39,340,37.82